onset	duration	trial_type	trial_number	event_code	response_time	response	result
-41.6042270479	n/a	n/a	n/a	1	n/a	n/a	n/a
0.0	0	n/a	n/a	2	41.6042270479	n/a	n/a
0.0172326811	5	090	0	3	n/a	n/a	C:\StimTool\CueReactivity\media\blank.png
10.2761831826	5	001	1	3	n/a	n/a	C:\StimTool\CueReactivity\media\MethOpioidDatabase\finalcueset\ExtractedNeutralCues120\Slide023.jpeg
15.4625060694	5	000	2	3	n/a	n/a	C:\StimTool\CueReactivity\media\MethOpioidDatabase\finalcueset\ExtractedNeutralCues120\Slide003.jpeg
20.6708298957	5	005	3	3	n/a	n/a	C:\StimTool\CueReactivity\media\MethOpioidDatabase\finalcueset\ExtractedNeutralCues120\Slide106.jpeg
25.8667031158	5	102	4	3	n/a	n/a	C:\StimTool\CueReactivity\media\MethOpioidDatabase\finalcueset\ExtractedNeutralCues120\Slide047.jpeg
25.8667031158	5	102	4	4	n/a	n/a	n/a
26.8656613546	0	102	4	5	0.998958238753	b	1
31.0729951327	5	004	5	3	n/a	n/a	C:\StimTool\CueReactivity\media\MethOpioidDatabase\finalcueset\ExtractedNeutralCues120\Slide091.jpeg
36.22975158	5	003	6	3	n/a	n/a	C:\StimTool\CueReactivity\media\MethOpioidDatabase\finalcueset\ExtractedNeutralCues120\Slide082.jpeg
41.4032535795	5	009	7	6	n/a	n/a	C:\StimTool\CueReactivity\media\MethOpioidDatabase\urge_question_drugs.PNG
42.6293355071	0	009	7	7	1.22608192767	1	n/a
46.447741798	5	091	8	3	n/a	n/a	C:\StimTool\CueReactivity\media\fixation.png
56.6634088765	5	010	9	3	n/a	n/a	C:\StimTool\CueReactivity\media\MethOpioidDatabase\finalcueset\ExtractedOpioidCues120\Slide014.jpeg
61.871915475	5	013	10	3	n/a	n/a	C:\StimTool\CueReactivity\media\MethOpioidDatabase\finalcueset\ExtractedOpioidCues120\Slide076.jpeg
67.068610577	5	111	11	3	n/a	n/a	C:\StimTool\CueReactivity\media\MethOpioidDatabase\finalcueset\ExtractedOpioidCues120\Slide032.jpeg
67.068610577	5	111	11	4	n/a	n/a	n/a
68.394759219	0	111	11	5	1.32614864144	b	1
72.274990625	5	014	12	3	n/a	n/a	C:\StimTool\CueReactivity\media\MethOpioidDatabase\finalcueset\ExtractedOpioidCues120\Slide091.jpeg
77.480876437	5	012	13	3	n/a	n/a	C:\StimTool\CueReactivity\media\MethOpioidDatabase\finalcueset\ExtractedOpioidCues120\Slide057.jpeg
82.667832118	5	015	14	3	n/a	n/a	C:\StimTool\CueReactivity\media\MethOpioidDatabase\finalcueset\ExtractedOpioidCues120\Slide103.jpeg
87.803397271	5	019	15	6	n/a	n/a	C:\StimTool\CueReactivity\media\MethOpioidDatabase\urge_question_drugs.PNG
92.806390311	0	019	15	7	n/a	n/a	n/a
92.838965581	5	091	16	3	n/a	n/a	C:\StimTool\CueReactivity\media\fixation.png
93.22297046	0	091	16	5	0.384004879183	b	2
97.3575053	0	091	16	5	4.51853971838	b	2
105.076742947	5	100	17	3	n/a	n/a	C:\StimTool\CueReactivity\media\MethOpioidDatabase\finalcueset\ExtractedNeutralCues120\Slide004.jpeg
105.076742947	5	100	17	4	n/a	n/a	n/a
106.090780077	0	100	17	5	1.01403713076	b	1
110.268523336	5	005	18	3	n/a	n/a	C:\StimTool\CueReactivity\media\MethOpioidDatabase\finalcueset\ExtractedNeutralCues120\Slide111.jpeg
115.471276365	5	001	19	3	n/a	n/a	C:\StimTool\CueReactivity\media\MethOpioidDatabase\finalcueset\ExtractedNeutralCues120\Slide026.jpeg
120.671751651	5	003	20	3	n/a	n/a	C:\StimTool\CueReactivity\media\MethOpioidDatabase\finalcueset\ExtractedNeutralCues120\Slide088.jpeg
125.870721733	5	004	21	3	n/a	n/a	C:\StimTool\CueReactivity\media\MethOpioidDatabase\finalcueset\ExtractedNeutralCues120\Slide100.jpeg
131.057985718	5	002	22	3	n/a	n/a	C:\StimTool\CueReactivity\media\MethOpioidDatabase\finalcueset\ExtractedNeutralCues120\Slide050.jpeg
136.204063619	5	009	23	6	n/a	n/a	C:\StimTool\CueReactivity\media\MethOpioidDatabase\urge_question_drugs.PNG
136.75203477	0	009	23	7	0.547971151227	1	n/a
141.248324853	5	091	24	3	n/a	n/a	C:\StimTool\CueReactivity\media\fixation.png
149.474379147	5	012	25	3	n/a	n/a	C:\StimTool\CueReactivity\media\MethOpioidDatabase\finalcueset\ExtractedOpioidCues120\Slide058.jpeg
154.648535258	5	015	26	3	n/a	n/a	C:\StimTool\CueReactivity\media\MethOpioidDatabase\finalcueset\ExtractedOpioidCues120\Slide113.jpeg
159.840830014	5	113	27	3	n/a	n/a	C:\StimTool\CueReactivity\media\MethOpioidDatabase\finalcueset\ExtractedOpioidCues120\Slide071.jpeg
159.840830014	5	113	27	4	n/a	n/a	n/a
164.813698825	0	113	27	5	n/a	n/a	0
165.061549575	5	014	28	3	n/a	n/a	C:\StimTool\CueReactivity\media\MethOpioidDatabase\finalcueset\ExtractedOpioidCues120\Slide100.jpeg
170.273683982	5	010	29	3	n/a	n/a	C:\StimTool\CueReactivity\media\MethOpioidDatabase\finalcueset\ExtractedOpioidCues120\Slide006.jpeg
175.466609953	5	011	30	3	n/a	n/a	C:\StimTool\CueReactivity\media\MethOpioidDatabase\finalcueset\ExtractedOpioidCues120\Slide027.jpeg
180.604581539	5	019	31	6	n/a	n/a	C:\StimTool\CueReactivity\media\MethOpioidDatabase\urge_question_drugs.PNG
182.646955839	0	019	31	7	2.0423742998	1	n/a
185.652907971	5	091	32	3	n/a	n/a	C:\StimTool\CueReactivity\media\fixation.png
187.877880634	0	091	32	5	2.22497266315	y	2
193.867339463	5	003	33	3	n/a	n/a	C:\StimTool\CueReactivity\media\MethOpioidDatabase\finalcueset\ExtractedNeutralCues120\Slide085.jpeg
199.063560068	5	102	34	3	n/a	n/a	C:\StimTool\CueReactivity\media\MethOpioidDatabase\finalcueset\ExtractedNeutralCues120\Slide041.jpeg
199.063560068	5	102	34	4	n/a	n/a	n/a
199.660358202	0	102	34	5	0.596798133596	b	1
204.264936582	5	004	35	3	n/a	n/a	C:\StimTool\CueReactivity\media\MethOpioidDatabase\finalcueset\ExtractedNeutralCues120\Slide096.jpeg
209.478593168	5	001	36	3	n/a	n/a	C:\StimTool\CueReactivity\media\MethOpioidDatabase\finalcueset\ExtractedNeutralCues120\Slide029.jpeg
214.66838754	5	005	37	3	n/a	n/a	C:\StimTool\CueReactivity\media\MethOpioidDatabase\finalcueset\ExtractedNeutralCues120\Slide117.jpeg
219.855963777	5	000	38	3	n/a	n/a	C:\StimTool\CueReactivity\media\MethOpioidDatabase\finalcueset\ExtractedNeutralCues120\Slide016.jpeg
225.003839397	5	009	39	6	n/a	n/a	C:\StimTool\CueReactivity\media\MethOpioidDatabase\urge_question_drugs.PNG
225.957228181	0	009	39	7	0.953388783404	1	n/a
230.037554328	5	091	40	3	n/a	n/a	C:\StimTool\CueReactivity\media\fixation.png
242.271463084	5	012	41	3	n/a	n/a	C:\StimTool\CueReactivity\media\MethOpioidDatabase\finalcueset\ExtractedOpioidCues120\Slide048.jpeg
247.454848197	5	014	42	3	n/a	n/a	C:\StimTool\CueReactivity\media\MethOpioidDatabase\finalcueset\ExtractedOpioidCues120\Slide098.jpeg
252.675092866	5	010	43	3	n/a	n/a	C:\StimTool\CueReactivity\media\MethOpioidDatabase\finalcueset\ExtractedOpioidCues120\Slide009.jpeg
257.858279811	5	115	44	3	n/a	n/a	C:\StimTool\CueReactivity\media\MethOpioidDatabase\finalcueset\ExtractedOpioidCues120\Slide120.jpeg
257.858279811	5	115	44	4	n/a	n/a	n/a
262.801719952	0	115	44	5	n/a	n/a	0
263.037744995	5	013	45	3	n/a	n/a	C:\StimTool\CueReactivity\media\MethOpioidDatabase\finalcueset\ExtractedOpioidCues120\Slide084.jpeg
268.278004587	5	011	46	3	n/a	n/a	C:\StimTool\CueReactivity\media\MethOpioidDatabase\finalcueset\ExtractedOpioidCues120\Slide023.jpeg
273.403284765	5	019	47	6	n/a	n/a	C:\StimTool\CueReactivity\media\MethOpioidDatabase\urge_question_drugs.PNG
275.517643227	0	019	47	7	2.11435846219	1	n/a
278.449570308	5	091	48	3	n/a	n/a	C:\StimTool\CueReactivity\media\fixation.png
286.63692035	5	003	49	3	n/a	n/a	C:\StimTool\CueReactivity\media\MethOpioidDatabase\finalcueset\ExtractedNeutralCues120\Slide076.jpeg
291.853686035	5	001	50	3	n/a	n/a	C:\StimTool\CueReactivity\media\MethOpioidDatabase\finalcueset\ExtractedNeutralCues120\Slide022.jpeg
297.082217819	5	005	51	3	n/a	n/a	C:\StimTool\CueReactivity\media\MethOpioidDatabase\finalcueset\ExtractedNeutralCues120\Slide107.jpeg
302.27174573	5	004	52	3	n/a	n/a	C:\StimTool\CueReactivity\media\MethOpioidDatabase\finalcueset\ExtractedNeutralCues120\Slide099.jpeg
307.460963363	5	000	53	3	n/a	n/a	C:\StimTool\CueReactivity\media\MethOpioidDatabase\finalcueset\ExtractedNeutralCues120\Slide014.jpeg
312.669057046	5	102	54	3	n/a	n/a	C:\StimTool\CueReactivity\media\MethOpioidDatabase\finalcueset\ExtractedNeutralCues120\Slide046.jpeg
312.669057046	5	102	54	4	n/a	n/a	n/a
313.460883227	0	102	54	5	0.791826181012	b	1
317.802970539	5	009	55	6	n/a	n/a	C:\StimTool\CueReactivity\media\MethOpioidDatabase\urge_question_drugs.PNG
318.594165505	0	009	55	7	0.79119496607	1	n/a
322.847264538	5	091	56	3	n/a	n/a	C:\StimTool\CueReactivity\media\fixation.png
333.076054492	5	012	57	3	n/a	n/a	C:\StimTool\CueReactivity\media\MethOpioidDatabase\finalcueset\ExtractedOpioidCues120\Slide068.jpeg
338.244676517	5	014	58	3	n/a	n/a	C:\StimTool\CueReactivity\media\MethOpioidDatabase\finalcueset\ExtractedOpioidCues120\Slide089.jpeg
343.465014744	5	115	59	3	n/a	n/a	C:\StimTool\CueReactivity\media\MethOpioidDatabase\finalcueset\ExtractedOpioidCues120\Slide110.jpeg
343.465014744	5	115	59	4	n/a	n/a	n/a
344.374258747	0	115	59	5	0.909244002669	y	1
348.674514154	5	011	60	3	n/a	n/a	C:\StimTool\CueReactivity\media\MethOpioidDatabase\finalcueset\ExtractedOpioidCues120\Slide030.jpeg
353.863744814	5	010	61	3	n/a	n/a	C:\StimTool\CueReactivity\media\MethOpioidDatabase\finalcueset\ExtractedOpioidCues120\Slide012.jpeg
359.040017606	5	013	62	3	n/a	n/a	C:\StimTool\CueReactivity\media\MethOpioidDatabase\finalcueset\ExtractedOpioidCues120\Slide070.jpeg
364.203353058	5	019	63	6	n/a	n/a	C:\StimTool\CueReactivity\media\MethOpioidDatabase\urge_question_drugs.PNG
366.539745619	0	019	63	7	2.33639256121	1	n/a
369.235703712	5	091	64	3	n/a	n/a	C:\StimTool\CueReactivity\media\fixation.png
381.406534397	5	090	65	3	n/a	n/a	C:\StimTool\CueReactivity\media\blank.png
391.700553053	0	n/a	n/a	99	n/a	n/a	n/a
