onset	duration	trial_type	trial_number	event_code	response_time	response	result
-70.7836062	n/a	n/a	n/a	1	n/a	n/a	n/a
0.0	0	n/a	n/a	2	70.78360619999876	n/a	n/a
0.017030300005	5	090	0	3	n/a	n/a	C:\stimtool3\CueReactivity\media\blank.png
10.2056347	5	001	1	3	n/a	n/a	C:\stimtool3\CueReactivity\media\MethOpioidDatabase\finalcueset\ExtractedNeutralCues120\Slide023.jpeg
15.4071285	5	000	2	3	n/a	n/a	C:\stimtool3\CueReactivity\media\MethOpioidDatabase\finalcueset\ExtractedNeutralCues120\Slide003.jpeg
20.6058148	5	005	3	3	n/a	n/a	C:\stimtool3\CueReactivity\media\MethOpioidDatabase\finalcueset\ExtractedNeutralCues120\Slide106.jpeg
25.8071558	5	102	4	3	n/a	n/a	C:\stimtool3\CueReactivity\media\MethOpioidDatabase\finalcueset\ExtractedNeutralCues120\Slide047.jpeg
25.8071558	5	102	4	4	n/a	n/a	n/a
26.2805303	0	102	4	5	0.47337450001214165	r	1
31.0066712	5	004	5	3	n/a	n/a	C:\stimtool3\CueReactivity\media\MethOpioidDatabase\finalcueset\ExtractedNeutralCues120\Slide091.jpeg
36.2042967	5	003	6	3	n/a	n/a	C:\stimtool3\CueReactivity\media\MethOpioidDatabase\finalcueset\ExtractedNeutralCues120\Slide082.jpeg
41.4035581	5	009	7	6	n/a	n/a	C:\stimtool3\CueReactivity\media\MethOpioidDatabase\urge_question_drugs.PNG
43.9712642	0	009	7	7	2.567706099987845	4	n/a
45.4040016	0	009	7	7	4.000443499986432	1	n/a
45.6704235	0	009	7	7	4.266865399986273	1	n/a
45.9036302	0	009	7	7	4.500072099996032	1	n/a
46.1359198	0	009	7	7	4.732361699992907	1	n/a
46.3532091	0	009	7	7	4.94965099998808	1	n/a
46.4346145	5	091	8	3	n/a	n/a	C:\stimtool3\CueReactivity\media\fixation.png
46.5856282	0	091	8	5	0.1510137000004761	r	2
56.603595	5	010	9	3	n/a	n/a	C:\stimtool3\CueReactivity\media\MethOpioidDatabase\finalcueset\ExtractedOpioidCues120\Slide014.jpeg
61.8045313	5	013	10	3	n/a	n/a	C:\stimtool3\CueReactivity\media\MethOpioidDatabase\finalcueset\ExtractedOpioidCues120\Slide076.jpeg
67.005177	5	111	11	3	n/a	n/a	C:\stimtool3\CueReactivity\media\MethOpioidDatabase\finalcueset\ExtractedOpioidCues120\Slide032.jpeg
67.005177	5	111	11	4	n/a	n/a	n/a
72.010518	0	111	11	5	n/a	n/a	0
72.2047715	5	014	12	3	n/a	n/a	C:\stimtool3\CueReactivity\media\MethOpioidDatabase\finalcueset\ExtractedOpioidCues120\Slide091.jpeg
77.4052637	5	012	13	3	n/a	n/a	C:\stimtool3\CueReactivity\media\MethOpioidDatabase\finalcueset\ExtractedOpioidCues120\Slide057.jpeg
82.6041698	5	015	14	3	n/a	n/a	C:\stimtool3\CueReactivity\media\MethOpioidDatabase\finalcueset\ExtractedOpioidCues120\Slide103.jpeg
87.8058346	5	019	15	6	n/a	n/a	C:\stimtool3\CueReactivity\media\MethOpioidDatabase\urge_question_drugs.PNG
89.2226284	0	019	15	7	1.4167938000027789	2	n/a
92.8359796	5	091	16	3	n/a	n/a	C:\stimtool3\CueReactivity\media\fixation.png
105.0058984	5	100	17	3	n/a	n/a	C:\stimtool3\CueReactivity\media\MethOpioidDatabase\finalcueset\ExtractedNeutralCues120\Slide004.jpeg
105.0058984	5	100	17	4	n/a	n/a	n/a
105.832894	0	100	17	5	0.8269956000003731	r	1
110.2041975	5	005	18	3	n/a	n/a	C:\stimtool3\CueReactivity\media\MethOpioidDatabase\finalcueset\ExtractedNeutralCues120\Slide111.jpeg
115.4050145	5	001	19	3	n/a	n/a	C:\stimtool3\CueReactivity\media\MethOpioidDatabase\finalcueset\ExtractedNeutralCues120\Slide026.jpeg
120.6057972	5	003	20	3	n/a	n/a	C:\stimtool3\CueReactivity\media\MethOpioidDatabase\finalcueset\ExtractedNeutralCues120\Slide088.jpeg
125.8071723	5	004	21	3	n/a	n/a	C:\stimtool3\CueReactivity\media\MethOpioidDatabase\finalcueset\ExtractedNeutralCues120\Slide100.jpeg
131.0055512	5	002	22	3	n/a	n/a	C:\stimtool3\CueReactivity\media\MethOpioidDatabase\finalcueset\ExtractedNeutralCues120\Slide050.jpeg
136.2039613	5	009	23	6	n/a	n/a	C:\stimtool3\CueReactivity\media\MethOpioidDatabase\urge_question_drugs.PNG
138.8925944	0	009	23	7	2.6886330999986967	1	n/a
141.2374464	5	091	24	3	n/a	n/a	C:\stimtool3\CueReactivity\media\fixation.png
149.4073101	5	012	25	3	n/a	n/a	C:\stimtool3\CueReactivity\media\MethOpioidDatabase\finalcueset\ExtractedOpioidCues120\Slide058.jpeg
154.6054077	5	015	26	3	n/a	n/a	C:\stimtool3\CueReactivity\media\MethOpioidDatabase\finalcueset\ExtractedOpioidCues120\Slide113.jpeg
159.8059906	5	113	27	3	n/a	n/a	C:\stimtool3\CueReactivity\media\MethOpioidDatabase\finalcueset\ExtractedOpioidCues120\Slide071.jpeg
159.8059906	5	113	27	4	n/a	n/a	n/a
164.813784	0	113	27	5	n/a	n/a	0
165.0063434	5	014	28	3	n/a	n/a	C:\stimtool3\CueReactivity\media\MethOpioidDatabase\finalcueset\ExtractedOpioidCues120\Slide100.jpeg
170.2073088	5	010	29	3	n/a	n/a	C:\stimtool3\CueReactivity\media\MethOpioidDatabase\finalcueset\ExtractedOpioidCues120\Slide006.jpeg
175.4066927	5	011	30	3	n/a	n/a	C:\stimtool3\CueReactivity\media\MethOpioidDatabase\finalcueset\ExtractedOpioidCues120\Slide027.jpeg
180.6055412	5	019	31	6	n/a	n/a	C:\stimtool3\CueReactivity\media\MethOpioidDatabase\urge_question_drugs.PNG
182.0273564	0	019	31	7	1.4218151999957627	2	n/a
185.6393498	5	091	32	3	n/a	n/a	C:\stimtool3\CueReactivity\media\fixation.png
193.8058558	5	003	33	3	n/a	n/a	C:\stimtool3\CueReactivity\media\MethOpioidDatabase\finalcueset\ExtractedNeutralCues120\Slide085.jpeg
199.0079266	5	102	34	3	n/a	n/a	C:\stimtool3\CueReactivity\media\MethOpioidDatabase\finalcueset\ExtractedNeutralCues120\Slide041.jpeg
199.0079266	5	102	34	4	n/a	n/a	n/a
200.0864763	0	102	34	5	1.0785497000033502	g	1
204.2065405	5	004	35	3	n/a	n/a	C:\stimtool3\CueReactivity\media\MethOpioidDatabase\finalcueset\ExtractedNeutralCues120\Slide096.jpeg
209.4065726	5	001	36	3	n/a	n/a	C:\stimtool3\CueReactivity\media\MethOpioidDatabase\finalcueset\ExtractedNeutralCues120\Slide029.jpeg
214.605403	5	005	37	3	n/a	n/a	C:\stimtool3\CueReactivity\media\MethOpioidDatabase\finalcueset\ExtractedNeutralCues120\Slide117.jpeg
219.8054519	5	000	38	3	n/a	n/a	C:\stimtool3\CueReactivity\media\MethOpioidDatabase\finalcueset\ExtractedNeutralCues120\Slide016.jpeg
225.0052453	5	009	39	6	n/a	n/a	C:\stimtool3\CueReactivity\media\MethOpioidDatabase\urge_question_drugs.PNG
226.9445241	0	009	39	7	1.9392787999968277	1	n/a
227.8439155	0	009	39	7	2.8386701999988873	1	n/a
228.1948171	0	009	39	7	3.1895718000014313	1	n/a
230.0407779	5	091	40	3	n/a	n/a	C:\stimtool3\CueReactivity\media\fixation.png
242.206306	5	012	41	3	n/a	n/a	C:\stimtool3\CueReactivity\media\MethOpioidDatabase\finalcueset\ExtractedOpioidCues120\Slide048.jpeg
247.4066219	5	014	42	3	n/a	n/a	C:\stimtool3\CueReactivity\media\MethOpioidDatabase\finalcueset\ExtractedOpioidCues120\Slide098.jpeg
252.6066107	5	010	43	3	n/a	n/a	C:\stimtool3\CueReactivity\media\MethOpioidDatabase\finalcueset\ExtractedOpioidCues120\Slide009.jpeg
257.8076167	5	115	44	3	n/a	n/a	C:\stimtool3\CueReactivity\media\MethOpioidDatabase\finalcueset\ExtractedOpioidCues120\Slide120.jpeg
257.8076167	5	115	44	4	n/a	n/a	n/a
258.6833832	0	115	44	5	0.8757665000011912	g	1
263.0056886	5	013	45	3	n/a	n/a	C:\stimtool3\CueReactivity\media\MethOpioidDatabase\finalcueset\ExtractedOpioidCues120\Slide084.jpeg
268.2056828	5	011	46	3	n/a	n/a	C:\stimtool3\CueReactivity\media\MethOpioidDatabase\finalcueset\ExtractedOpioidCues120\Slide023.jpeg
273.4052533	5	019	47	6	n/a	n/a	C:\stimtool3\CueReactivity\media\MethOpioidDatabase\urge_question_drugs.PNG
274.829739	0	019	47	7	1.4244857000012416	2	n/a
278.4413145	5	091	48	3	n/a	n/a	C:\stimtool3\CueReactivity\media\fixation.png
286.6060961	5	003	49	3	n/a	n/a	C:\stimtool3\CueReactivity\media\MethOpioidDatabase\finalcueset\ExtractedNeutralCues120\Slide076.jpeg
291.8069348	5	001	50	3	n/a	n/a	C:\stimtool3\CueReactivity\media\MethOpioidDatabase\finalcueset\ExtractedNeutralCues120\Slide022.jpeg
297.0056591	5	005	51	3	n/a	n/a	C:\stimtool3\CueReactivity\media\MethOpioidDatabase\finalcueset\ExtractedNeutralCues120\Slide107.jpeg
302.206589	5	004	52	3	n/a	n/a	C:\stimtool3\CueReactivity\media\MethOpioidDatabase\finalcueset\ExtractedNeutralCues120\Slide099.jpeg
307.4064932	5	000	53	3	n/a	n/a	C:\stimtool3\CueReactivity\media\MethOpioidDatabase\finalcueset\ExtractedNeutralCues120\Slide014.jpeg
312.6064753	5	102	54	3	n/a	n/a	C:\stimtool3\CueReactivity\media\MethOpioidDatabase\finalcueset\ExtractedNeutralCues120\Slide046.jpeg
312.6064753	5	102	54	4	n/a	n/a	n/a
314.3645405	0	102	54	5	1.7580652000033297	r	1
317.8052214	5	009	55	6	n/a	n/a	C:\stimtool3\CueReactivity\media\MethOpioidDatabase\urge_question_drugs.PNG
322.8114545	0	009	55	7	n/a	n/a	n/a
322.8429472	5	091	56	3	n/a	n/a	C:\stimtool3\CueReactivity\media\fixation.png
323.6286524	0	091	56	5	0.7857052000035765	g	2
333.0059333	5	012	57	3	n/a	n/a	C:\stimtool3\CueReactivity\media\MethOpioidDatabase\finalcueset\ExtractedOpioidCues120\Slide068.jpeg
338.2068246	5	014	58	3	n/a	n/a	C:\stimtool3\CueReactivity\media\MethOpioidDatabase\finalcueset\ExtractedOpioidCues120\Slide089.jpeg
343.407327	5	115	59	3	n/a	n/a	C:\stimtool3\CueReactivity\media\MethOpioidDatabase\finalcueset\ExtractedOpioidCues120\Slide110.jpeg
343.407327	5	115	59	4	n/a	n/a	n/a
344.3215138	0	115	59	5	0.914186800000607	g	1
348.6063583	5	011	60	3	n/a	n/a	C:\stimtool3\CueReactivity\media\MethOpioidDatabase\finalcueset\ExtractedOpioidCues120\Slide030.jpeg
353.80655	5	010	61	3	n/a	n/a	C:\stimtool3\CueReactivity\media\MethOpioidDatabase\finalcueset\ExtractedOpioidCues120\Slide012.jpeg
359.0054915	5	013	62	3	n/a	n/a	C:\stimtool3\CueReactivity\media\MethOpioidDatabase\finalcueset\ExtractedOpioidCues120\Slide070.jpeg
359.6161926	0	013	62	5	0.6107011000131024	g	2
360.1333055	0	013	62	5	1.1278140000067651	g	2
364.2040013	5	019	63	6	n/a	n/a	C:\stimtool3\CueReactivity\media\MethOpioidDatabase\urge_question_drugs.PNG
366.6972099	0	019	63	7	2.4932086000044364	2	n/a
367.76369	0	019	63	7	3.559688699999242	3	n/a
369.2437841	5	091	64	3	n/a	n/a	C:\stimtool3\CueReactivity\media\fixation.png
369.3632857	0	091	64	5	0.11950159999832977	g	2
381.4048915	5	090	65	3	n/a	n/a	C:\stimtool3\CueReactivity\media\blank.png
391.7125271	0	n/a	n/a	99	n/a	n/a	n/a
