onset	duration	trial_type	trial_number	event_code	response_time	response	result
-19.4604538833	n/a	n/a	n/a	1	n/a	n/a	n/a
0.0	0	n/a	n/a	2	19.4604538833	n/a	n/a
0.023383403	5	090	0	3	n/a	n/a	C:\StimTool\CueReactivity\media\blank.png
10.271333531	5	001	1	3	n/a	n/a	C:\StimTool\CueReactivity\media\MethOpioidDatabase\finalcueset\ExtractedNeutralCues120\Slide023.jpeg
15.4765662656	5	000	2	3	n/a	n/a	C:\StimTool\CueReactivity\media\MethOpioidDatabase\finalcueset\ExtractedNeutralCues120\Slide003.jpeg
20.681153968	5	005	3	3	n/a	n/a	C:\StimTool\CueReactivity\media\MethOpioidDatabase\finalcueset\ExtractedNeutralCues120\Slide106.jpeg
25.8503900392	5	102	4	3	n/a	n/a	C:\StimTool\CueReactivity\media\MethOpioidDatabase\finalcueset\ExtractedNeutralCues120\Slide047.jpeg
25.8503900392	5	102	4	4	n/a	n/a	n/a
26.6555757187	0	102	4	5	0.805185679579	b	1
31.0716340987	5	004	5	3	n/a	n/a	C:\StimTool\CueReactivity\media\MethOpioidDatabase\finalcueset\ExtractedNeutralCues120\Slide091.jpeg
36.2663292023	5	003	6	3	n/a	n/a	C:\StimTool\CueReactivity\media\MethOpioidDatabase\finalcueset\ExtractedNeutralCues120\Slide082.jpeg
41.4046053086	5	009	7	6	n/a	n/a	C:\StimTool\CueReactivity\media\MethOpioidDatabase\urge_question_drugs.PNG
42.203479226	0	009	7	7	0.798873917433	2	n/a
46.4356497515	5	091	8	3	n/a	n/a	C:\StimTool\CueReactivity\media\fixation.png
56.6360210595	5	010	9	3	n/a	n/a	C:\StimTool\CueReactivity\media\MethOpioidDatabase\finalcueset\ExtractedOpioidCues120\Slide014.jpeg
61.8325320434	5	013	10	3	n/a	n/a	C:\StimTool\CueReactivity\media\MethOpioidDatabase\finalcueset\ExtractedOpioidCues120\Slide076.jpeg
67.0758548353	5	111	11	3	n/a	n/a	C:\StimTool\CueReactivity\media\MethOpioidDatabase\finalcueset\ExtractedOpioidCues120\Slide032.jpeg
67.0758548353	5	111	11	4	n/a	n/a	n/a
67.6169472134	0	111	11	5	0.541092378087	b	1
72.2439619028	5	014	12	3	n/a	n/a	C:\StimTool\CueReactivity\media\MethOpioidDatabase\finalcueset\ExtractedOpioidCues120\Slide091.jpeg
77.4572354332	5	012	13	3	n/a	n/a	C:\StimTool\CueReactivity\media\MethOpioidDatabase\finalcueset\ExtractedOpioidCues120\Slide057.jpeg
82.6661615098	5	015	14	3	n/a	n/a	C:\StimTool\CueReactivity\media\MethOpioidDatabase\finalcueset\ExtractedOpioidCues120\Slide103.jpeg
87.8048019768	5	019	15	6	n/a	n/a	C:\StimTool\CueReactivity\media\MethOpioidDatabase\urge_question_drugs.PNG
88.5506099578	0	019	15	7	0.745807981584	4	n/a
92.8578983078	5	091	16	3	n/a	n/a	C:\StimTool\CueReactivity\media\fixation.png
105.065230358	5	100	17	3	n/a	n/a	C:\StimTool\CueReactivity\media\MethOpioidDatabase\finalcueset\ExtractedNeutralCues120\Slide004.jpeg
105.065230358	5	100	17	4	n/a	n/a	n/a
105.930670885	0	100	17	5	0.865440526512	b	1
110.267166481	5	005	18	3	n/a	n/a	C:\StimTool\CueReactivity\media\MethOpioidDatabase\finalcueset\ExtractedNeutralCues120\Slide111.jpeg
115.481073596	5	001	19	3	n/a	n/a	C:\StimTool\CueReactivity\media\MethOpioidDatabase\finalcueset\ExtractedNeutralCues120\Slide026.jpeg
120.633043016	5	003	20	3	n/a	n/a	C:\StimTool\CueReactivity\media\MethOpioidDatabase\finalcueset\ExtractedNeutralCues120\Slide088.jpeg
125.866572294	5	004	21	3	n/a	n/a	C:\StimTool\CueReactivity\media\MethOpioidDatabase\finalcueset\ExtractedNeutralCues120\Slide100.jpeg
131.065625904	5	002	22	3	n/a	n/a	C:\StimTool\CueReactivity\media\MethOpioidDatabase\finalcueset\ExtractedNeutralCues120\Slide050.jpeg
136.203569625	5	009	23	6	n/a	n/a	C:\StimTool\CueReactivity\media\MethOpioidDatabase\urge_question_drugs.PNG
136.77731429	0	009	23	7	0.573744664434	2	n/a
141.250398803	5	091	24	3	n/a	n/a	C:\StimTool\CueReactivity\media\fixation.png
149.466616033	5	012	25	3	n/a	n/a	C:\StimTool\CueReactivity\media\MethOpioidDatabase\finalcueset\ExtractedOpioidCues120\Slide058.jpeg
154.649565946	5	015	26	3	n/a	n/a	C:\StimTool\CueReactivity\media\MethOpioidDatabase\finalcueset\ExtractedOpioidCues120\Slide113.jpeg
159.880701419	5	113	27	3	n/a	n/a	C:\StimTool\CueReactivity\media\MethOpioidDatabase\finalcueset\ExtractedOpioidCues120\Slide071.jpeg
159.880701419	5	113	27	4	n/a	n/a	n/a
160.588131961	0	113	27	5	0.707430541515	b	1
165.07056944	5	014	28	3	n/a	n/a	C:\StimTool\CueReactivity\media\MethOpioidDatabase\finalcueset\ExtractedOpioidCues120\Slide100.jpeg
170.257612584	5	010	29	3	n/a	n/a	C:\StimTool\CueReactivity\media\MethOpioidDatabase\finalcueset\ExtractedOpioidCues120\Slide006.jpeg
175.45698871	5	011	30	3	n/a	n/a	C:\StimTool\CueReactivity\media\MethOpioidDatabase\finalcueset\ExtractedOpioidCues120\Slide027.jpeg
180.602414252	5	019	31	6	n/a	n/a	C:\StimTool\CueReactivity\media\MethOpioidDatabase\urge_question_drugs.PNG
181.218077718	0	019	31	7	0.615663465345	4	n/a
185.643819475	5	091	32	3	n/a	n/a	C:\StimTool\CueReactivity\media\fixation.png
193.862039305	5	003	33	3	n/a	n/a	C:\StimTool\CueReactivity\media\MethOpioidDatabase\finalcueset\ExtractedNeutralCues120\Slide085.jpeg
199.062278764	5	102	34	3	n/a	n/a	C:\StimTool\CueReactivity\media\MethOpioidDatabase\finalcueset\ExtractedNeutralCues120\Slide041.jpeg
199.062278764	5	102	34	4	n/a	n/a	n/a
199.834029355	0	102	34	5	0.77175059123	b	1
204.274687383	5	004	35	3	n/a	n/a	C:\StimTool\CueReactivity\media\MethOpioidDatabase\finalcueset\ExtractedNeutralCues120\Slide096.jpeg
209.464877525	5	001	36	3	n/a	n/a	C:\StimTool\CueReactivity\media\MethOpioidDatabase\finalcueset\ExtractedNeutralCues120\Slide029.jpeg
214.664480637	5	005	37	3	n/a	n/a	C:\StimTool\CueReactivity\media\MethOpioidDatabase\finalcueset\ExtractedNeutralCues120\Slide117.jpeg
219.828092612	5	000	38	3	n/a	n/a	C:\StimTool\CueReactivity\media\MethOpioidDatabase\finalcueset\ExtractedNeutralCues120\Slide016.jpeg
225.003911248	5	009	39	6	n/a	n/a	C:\StimTool\CueReactivity\media\MethOpioidDatabase\urge_question_drugs.PNG
225.714838938	0	009	39	7	0.710927689681	3	n/a
230.05322068	5	091	40	3	n/a	n/a	C:\StimTool\CueReactivity\media\fixation.png
242.239687479	5	012	41	3	n/a	n/a	C:\StimTool\CueReactivity\media\MethOpioidDatabase\finalcueset\ExtractedOpioidCues120\Slide048.jpeg
247.474359182	5	014	42	3	n/a	n/a	C:\StimTool\CueReactivity\media\MethOpioidDatabase\finalcueset\ExtractedOpioidCues120\Slide098.jpeg
252.665711488	5	010	43	3	n/a	n/a	C:\StimTool\CueReactivity\media\MethOpioidDatabase\finalcueset\ExtractedOpioidCues120\Slide009.jpeg
257.870080495	5	115	44	3	n/a	n/a	C:\StimTool\CueReactivity\media\MethOpioidDatabase\finalcueset\ExtractedOpioidCues120\Slide120.jpeg
257.870080495	5	115	44	4	n/a	n/a	n/a
258.577348002	0	115	44	5	0.707267507212	b	1
263.062103097	5	013	45	3	n/a	n/a	C:\StimTool\CueReactivity\media\MethOpioidDatabase\finalcueset\ExtractedOpioidCues120\Slide084.jpeg
268.266020898	5	011	46	3	n/a	n/a	C:\StimTool\CueReactivity\media\MethOpioidDatabase\finalcueset\ExtractedOpioidCues120\Slide023.jpeg
273.403902642	5	019	47	6	n/a	n/a	C:\StimTool\CueReactivity\media\MethOpioidDatabase\urge_question_drugs.PNG
274.958081199	0	019	47	7	1.55417855713	4	n/a
278.442715499	5	091	48	3	n/a	n/a	C:\StimTool\CueReactivity\media\fixation.png
286.652148048	5	003	49	3	n/a	n/a	C:\StimTool\CueReactivity\media\MethOpioidDatabase\finalcueset\ExtractedNeutralCues120\Slide076.jpeg
291.880663523	5	001	50	3	n/a	n/a	C:\StimTool\CueReactivity\media\MethOpioidDatabase\finalcueset\ExtractedNeutralCues120\Slide022.jpeg
297.053637149	5	005	51	3	n/a	n/a	C:\StimTool\CueReactivity\media\MethOpioidDatabase\finalcueset\ExtractedNeutralCues120\Slide107.jpeg
302.26847352	5	004	52	3	n/a	n/a	C:\StimTool\CueReactivity\media\MethOpioidDatabase\finalcueset\ExtractedNeutralCues120\Slide099.jpeg
307.468401122	5	000	53	3	n/a	n/a	C:\StimTool\CueReactivity\media\MethOpioidDatabase\finalcueset\ExtractedNeutralCues120\Slide014.jpeg
312.661834978	5	102	54	3	n/a	n/a	C:\StimTool\CueReactivity\media\MethOpioidDatabase\finalcueset\ExtractedNeutralCues120\Slide046.jpeg
312.661834978	5	102	54	4	n/a	n/a	n/a
313.284950263	0	102	54	5	0.623115284368	b	1
317.806243233	5	009	55	6	n/a	n/a	C:\StimTool\CueReactivity\media\MethOpioidDatabase\urge_question_drugs.PNG
319.236011507	0	009	55	7	1.42976827384	3	n/a
322.837716776	5	091	56	3	n/a	n/a	C:\StimTool\CueReactivity\media\fixation.png
333.071602913	5	012	57	3	n/a	n/a	C:\StimTool\CueReactivity\media\MethOpioidDatabase\finalcueset\ExtractedOpioidCues120\Slide068.jpeg
338.270125576	5	014	58	3	n/a	n/a	C:\StimTool\CueReactivity\media\MethOpioidDatabase\finalcueset\ExtractedOpioidCues120\Slide089.jpeg
343.472498694	5	115	59	3	n/a	n/a	C:\StimTool\CueReactivity\media\MethOpioidDatabase\finalcueset\ExtractedOpioidCues120\Slide110.jpeg
343.472498694	5	115	59	4	n/a	n/a	n/a
344.113806333	0	115	59	5	0.641307638958	b	1
348.667745668	5	011	60	3	n/a	n/a	C:\StimTool\CueReactivity\media\MethOpioidDatabase\finalcueset\ExtractedOpioidCues120\Slide030.jpeg
353.859021391	5	010	61	3	n/a	n/a	C:\StimTool\CueReactivity\media\MethOpioidDatabase\finalcueset\ExtractedOpioidCues120\Slide012.jpeg
359.031390645	5	013	62	3	n/a	n/a	C:\StimTool\CueReactivity\media\MethOpioidDatabase\finalcueset\ExtractedOpioidCues120\Slide070.jpeg
364.204524147	5	019	63	6	n/a	n/a	C:\StimTool\CueReactivity\media\MethOpioidDatabase\urge_question_drugs.PNG
365.413331797	0	019	63	7	1.20880764979	4	n/a
369.245177753	5	091	64	3	n/a	n/a	C:\StimTool\CueReactivity\media\fixation.png
381.42801595	5	090	65	3	n/a	n/a	C:\StimTool\CueReactivity\media\blank.png
391.689705974	0	n/a	n/a	99	n/a	n/a	n/a
