onset	duration	trial_type	trial_number	event_code	response_time	response	result
-29.1634804565	n/a	n/a	n/a	1	n/a	n/a	n/a
0.0	0	n/a	n/a	2	29.1634804564	n/a	n/a
0.024471737	5	090	0	3	n/a	n/a	C:\StimTool\CueReactivity\media\blank.png
10.2768240902	5	001	1	3	n/a	n/a	C:\StimTool\CueReactivity\media\MethOpioidDatabase\finalcueset\ExtractedNeutralCues120\Slide023.jpeg
15.441383021	5	000	2	3	n/a	n/a	C:\StimTool\CueReactivity\media\MethOpioidDatabase\finalcueset\ExtractedNeutralCues120\Slide003.jpeg
20.6665370549	5	005	3	3	n/a	n/a	C:\StimTool\CueReactivity\media\MethOpioidDatabase\finalcueset\ExtractedNeutralCues120\Slide106.jpeg
25.8675880543	5	102	4	3	n/a	n/a	C:\StimTool\CueReactivity\media\MethOpioidDatabase\finalcueset\ExtractedNeutralCues120\Slide047.jpeg
25.8675880543	5	102	4	4	n/a	n/a	n/a
26.9752724608	0	102	4	5	1.10768440648	b	1
31.0690843389	5	004	5	3	n/a	n/a	C:\StimTool\CueReactivity\media\MethOpioidDatabase\finalcueset\ExtractedNeutralCues120\Slide091.jpeg
36.2595203394	5	003	6	3	n/a	n/a	C:\StimTool\CueReactivity\media\MethOpioidDatabase\finalcueset\ExtractedNeutralCues120\Slide082.jpeg
41.4055115095	5	009	7	6	n/a	n/a	C:\StimTool\CueReactivity\media\MethOpioidDatabase\urge_question_drugs.PNG
42.1901762508	0	009	7	7	0.78466474131	1	n/a
46.4418058051	5	091	8	3	n/a	n/a	C:\StimTool\CueReactivity\media\fixation.png
56.6279965956	5	010	9	3	n/a	n/a	C:\StimTool\CueReactivity\media\MethOpioidDatabase\finalcueset\ExtractedOpioidCues120\Slide014.jpeg
61.8704026673	5	013	10	3	n/a	n/a	C:\StimTool\CueReactivity\media\MethOpioidDatabase\finalcueset\ExtractedOpioidCues120\Slide076.jpeg
67.0649745303	5	111	11	3	n/a	n/a	C:\StimTool\CueReactivity\media\MethOpioidDatabase\finalcueset\ExtractedOpioidCues120\Slide032.jpeg
67.0649745303	5	111	11	4	n/a	n/a	n/a
68.1353481435	0	111	11	5	1.07037361323	b	1
72.2650496917	5	014	12	3	n/a	n/a	C:\StimTool\CueReactivity\media\MethOpioidDatabase\finalcueset\ExtractedOpioidCues120\Slide091.jpeg
77.4894402667	5	012	13	3	n/a	n/a	C:\StimTool\CueReactivity\media\MethOpioidDatabase\finalcueset\ExtractedOpioidCues120\Slide057.jpeg
82.6651656717	5	015	14	3	n/a	n/a	C:\StimTool\CueReactivity\media\MethOpioidDatabase\finalcueset\ExtractedOpioidCues120\Slide103.jpeg
87.8050306177	5	019	15	6	n/a	n/a	C:\StimTool\CueReactivity\media\MethOpioidDatabase\urge_question_drugs.PNG
89.6506346897	0	019	15	7	1.84560407199	2	n/a
92.8533409017	5	091	16	3	n/a	n/a	C:\StimTool\CueReactivity\media\fixation.png
105.03582651	5	100	17	3	n/a	n/a	C:\StimTool\CueReactivity\media\MethOpioidDatabase\finalcueset\ExtractedNeutralCues120\Slide004.jpeg
105.03582651	5	100	17	4	n/a	n/a	n/a
106.265365497	0	100	17	5	1.22953898771	b	1
110.268223928	5	005	18	3	n/a	n/a	C:\StimTool\CueReactivity\media\MethOpioidDatabase\finalcueset\ExtractedNeutralCues120\Slide111.jpeg
115.440191647	5	001	19	3	n/a	n/a	C:\StimTool\CueReactivity\media\MethOpioidDatabase\finalcueset\ExtractedNeutralCues120\Slide026.jpeg
120.67231313	5	003	20	3	n/a	n/a	C:\StimTool\CueReactivity\media\MethOpioidDatabase\finalcueset\ExtractedNeutralCues120\Slide088.jpeg
125.865167409	5	004	21	3	n/a	n/a	C:\StimTool\CueReactivity\media\MethOpioidDatabase\finalcueset\ExtractedNeutralCues120\Slide100.jpeg
131.058395126	5	002	22	3	n/a	n/a	C:\StimTool\CueReactivity\media\MethOpioidDatabase\finalcueset\ExtractedNeutralCues120\Slide050.jpeg
136.204941718	5	009	23	6	n/a	n/a	C:\StimTool\CueReactivity\media\MethOpioidDatabase\urge_question_drugs.PNG
138.609647925	0	009	23	7	2.40470620651	1	n/a
141.25246328	5	091	24	3	n/a	n/a	C:\StimTool\CueReactivity\media\fixation.png
149.469960619	5	012	25	3	n/a	n/a	C:\StimTool\CueReactivity\media\MethOpioidDatabase\finalcueset\ExtractedOpioidCues120\Slide058.jpeg
154.661394169	5	015	26	3	n/a	n/a	C:\StimTool\CueReactivity\media\MethOpioidDatabase\finalcueset\ExtractedOpioidCues120\Slide113.jpeg
159.885487098	5	113	27	3	n/a	n/a	C:\StimTool\CueReactivity\media\MethOpioidDatabase\finalcueset\ExtractedOpioidCues120\Slide071.jpeg
159.885487098	5	113	27	4	n/a	n/a	n/a
160.974247674	0	113	27	5	1.08876057553	b	1
165.07626101	5	014	28	3	n/a	n/a	C:\StimTool\CueReactivity\media\MethOpioidDatabase\finalcueset\ExtractedOpioidCues120\Slide100.jpeg
170.271533171	5	010	29	3	n/a	n/a	C:\StimTool\CueReactivity\media\MethOpioidDatabase\finalcueset\ExtractedOpioidCues120\Slide006.jpeg
175.46517104	5	011	30	3	n/a	n/a	C:\StimTool\CueReactivity\media\MethOpioidDatabase\finalcueset\ExtractedOpioidCues120\Slide027.jpeg
180.60549943	5	019	31	6	n/a	n/a	C:\StimTool\CueReactivity\media\MethOpioidDatabase\urge_question_drugs.PNG
182.988752996	0	019	31	7	2.38325356624	3	n/a
185.639795864	5	091	32	3	n/a	n/a	C:\StimTool\CueReactivity\media\fixation.png
193.863944848	5	003	33	3	n/a	n/a	C:\StimTool\CueReactivity\media\MethOpioidDatabase\finalcueset\ExtractedNeutralCues120\Slide085.jpeg
199.061322245	5	102	34	3	n/a	n/a	C:\StimTool\CueReactivity\media\MethOpioidDatabase\finalcueset\ExtractedNeutralCues120\Slide041.jpeg
199.061322245	5	102	34	4	n/a	n/a	n/a
199.886100155	0	102	34	5	0.824777910064	b	1
204.269506097	5	004	35	3	n/a	n/a	C:\StimTool\CueReactivity\media\MethOpioidDatabase\finalcueset\ExtractedNeutralCues120\Slide096.jpeg
209.475491946	5	001	36	3	n/a	n/a	C:\StimTool\CueReactivity\media\MethOpioidDatabase\finalcueset\ExtractedNeutralCues120\Slide029.jpeg
214.653304032	5	005	37	3	n/a	n/a	C:\StimTool\CueReactivity\media\MethOpioidDatabase\finalcueset\ExtractedNeutralCues120\Slide117.jpeg
219.843276983	5	000	38	3	n/a	n/a	C:\StimTool\CueReactivity\media\MethOpioidDatabase\finalcueset\ExtractedNeutralCues120\Slide016.jpeg
225.002188135	5	009	39	6	n/a	n/a	C:\StimTool\CueReactivity\media\MethOpioidDatabase\urge_question_drugs.PNG
227.432264149	0	009	39	7	2.43007601429	2	n/a
230.051004497	5	091	40	3	n/a	n/a	C:\StimTool\CueReactivity\media\fixation.png
242.27021429	5	012	41	3	n/a	n/a	C:\StimTool\CueReactivity\media\MethOpioidDatabase\finalcueset\ExtractedOpioidCues120\Slide048.jpeg
247.469113077	5	014	42	3	n/a	n/a	C:\StimTool\CueReactivity\media\MethOpioidDatabase\finalcueset\ExtractedOpioidCues120\Slide098.jpeg
252.67547434	5	010	43	3	n/a	n/a	C:\StimTool\CueReactivity\media\MethOpioidDatabase\finalcueset\ExtractedOpioidCues120\Slide009.jpeg
257.868674819	5	115	44	3	n/a	n/a	C:\StimTool\CueReactivity\media\MethOpioidDatabase\finalcueset\ExtractedOpioidCues120\Slide120.jpeg
257.868674819	5	115	44	4	n/a	n/a	n/a
259.361698684	0	115	44	5	1.49302386539	b	1
263.067753615	5	013	45	3	n/a	n/a	C:\StimTool\CueReactivity\media\MethOpioidDatabase\finalcueset\ExtractedOpioidCues120\Slide084.jpeg
268.273016271	5	011	46	3	n/a	n/a	C:\StimTool\CueReactivity\media\MethOpioidDatabase\finalcueset\ExtractedOpioidCues120\Slide023.jpeg
273.403769845	5	019	47	6	n/a	n/a	C:\StimTool\CueReactivity\media\MethOpioidDatabase\urge_question_drugs.PNG
278.407853205	0	019	47	7	n/a	n/a	n/a
278.453192948	5	091	48	3	n/a	n/a	C:\StimTool\CueReactivity\media\fixation.png
279.059245826	0	091	48	5	0.606052878415	g	2
286.660814667	5	003	49	3	n/a	n/a	C:\StimTool\CueReactivity\media\MethOpioidDatabase\finalcueset\ExtractedNeutralCues120\Slide076.jpeg
291.870333585	5	001	50	3	n/a	n/a	C:\StimTool\CueReactivity\media\MethOpioidDatabase\finalcueset\ExtractedNeutralCues120\Slide022.jpeg
297.037111047	5	005	51	3	n/a	n/a	C:\StimTool\CueReactivity\media\MethOpioidDatabase\finalcueset\ExtractedNeutralCues120\Slide107.jpeg
302.268606842	5	004	52	3	n/a	n/a	C:\StimTool\CueReactivity\media\MethOpioidDatabase\finalcueset\ExtractedNeutralCues120\Slide099.jpeg
307.459190876	5	000	53	3	n/a	n/a	C:\StimTool\CueReactivity\media\MethOpioidDatabase\finalcueset\ExtractedNeutralCues120\Slide014.jpeg
312.662646336	5	102	54	3	n/a	n/a	C:\StimTool\CueReactivity\media\MethOpioidDatabase\finalcueset\ExtractedNeutralCues120\Slide046.jpeg
312.662646336	5	102	54	4	n/a	n/a	n/a
313.618680345	0	102	54	5	0.956034009039	b	1
317.804628361	5	009	55	6	n/a	n/a	C:\StimTool\CueReactivity\media\MethOpioidDatabase\urge_question_drugs.PNG
318.92024066	0	009	55	7	1.11561229872	1	n/a
322.837182735	5	091	56	3	n/a	n/a	C:\StimTool\CueReactivity\media\fixation.png
333.075554001	5	012	57	3	n/a	n/a	C:\StimTool\CueReactivity\media\MethOpioidDatabase\finalcueset\ExtractedOpioidCues120\Slide068.jpeg
338.270206	5	014	58	3	n/a	n/a	C:\StimTool\CueReactivity\media\MethOpioidDatabase\finalcueset\ExtractedOpioidCues120\Slide089.jpeg
343.467219826	5	115	59	3	n/a	n/a	C:\StimTool\CueReactivity\media\MethOpioidDatabase\finalcueset\ExtractedOpioidCues120\Slide110.jpeg
343.467219826	5	115	59	4	n/a	n/a	n/a
344.13428467	0	115	59	5	0.667064844252	b	1
348.674371785	5	011	60	3	n/a	n/a	C:\StimTool\CueReactivity\media\MethOpioidDatabase\finalcueset\ExtractedOpioidCues120\Slide030.jpeg
353.861354457	5	010	61	3	n/a	n/a	C:\StimTool\CueReactivity\media\MethOpioidDatabase\finalcueset\ExtractedOpioidCues120\Slide012.jpeg
359.040690303	5	013	62	3	n/a	n/a	C:\StimTool\CueReactivity\media\MethOpioidDatabase\finalcueset\ExtractedOpioidCues120\Slide070.jpeg
364.204172338	5	019	63	6	n/a	n/a	C:\StimTool\CueReactivity\media\MethOpioidDatabase\urge_question_drugs.PNG
365.647395714	0	019	63	7	1.44322337526	2	n/a
369.576702348	5	091	64	3	n/a	n/a	C:\StimTool\CueReactivity\media\fixation.png
381.406855655	5	090	65	3	n/a	n/a	C:\StimTool\CueReactivity\media\blank.png
391.69640748	0	n/a	n/a	99	n/a	n/a	n/a
